* Measurement data measured by REW V5.40 beta 55
* Source: Frequency response averaged data
* Format: Averaged data produced from the rms magnitudes of right ear ~600 avg, left ear ~600avg
* Dated: Jan 12, 2025 8:34:58 AM
* REW Settings:
*  C-weighting compensation: Off
*  Target level: 81.9 dB
* Note: Averaged data produced from the rms magnitudes of right ear ~600 avg, left ear ~600avg
* Measurement: L+$
* Smoothing: 1/6 octave
* Frequency Step: 96 ppo
* Start Frequency: 20.0 Hz
*
* Freq(Hz), SPL(dB)
20.000000, 81.883
20.144928, 81.884
20.290907, 81.885
20.437943, 81.886
20.586045, 81.887
20.735220, 81.887
20.885476, 81.888
21.036820, 81.889
21.189262, 81.889
21.342808, 81.890
21.497467, 81.890
21.653246, 81.891
21.810155, 81.892
21.968200, 81.892
22.127391, 81.892
22.287735, 81.893
22.449241, 81.893
22.611917, 81.894
22.775773, 81.894
22.940815, 81.894
23.107054, 81.895
23.274497, 81.895
23.443154, 81.895
23.613033, 81.896
23.784142, 81.896
23.956492, 81.896
24.130091, 81.896
24.304947, 81.896
24.481071, 81.897
24.658471, 81.897
24.837156, 81.897
25.017137, 81.897
25.198421, 81.897
25.381019, 81.897
25.564940, 81.898
25.750195, 81.898
25.936791, 81.898
26.124740, 81.898
26.314050, 81.898
26.504733, 81.898
26.696797, 81.898
26.890253, 81.898
27.085111, 81.898
27.281381, 81.899
27.479073, 81.899
27.678198, 81.899
27.878765, 81.899
28.080786, 81.899
28.284271, 81.899
28.489231, 81.899
28.695675, 81.899
28.903616, 81.899
29.113064, 81.899
29.324029, 81.899
29.536523, 81.899
29.750557, 81.899
29.966142, 81.899
30.183289, 81.899
30.402009, 81.899
30.622315, 81.899
30.844217, 81.899
31.067726, 81.899
31.292856, 81.900
31.519617, 81.900
31.748021, 81.900
31.978080, 81.900
32.209807, 81.900
32.443212, 81.900
32.678309, 81.900
32.915110, 81.900
33.153626, 81.900
33.393871, 81.900
33.635857, 81.900
33.879596, 81.900
34.125101, 81.900
34.372386, 81.900
34.621462, 81.900
34.872344, 81.900
35.125043, 81.900
35.379574, 81.900
35.635949, 81.900
35.894182, 81.900
36.154286, 81.900
36.416274, 81.900
36.680162, 81.900
36.945961, 81.900
37.213687, 81.900
37.483353, 81.900
37.754973, 81.900
38.028561, 81.900
38.304131, 81.900
38.581699, 81.900
38.861278, 81.900
39.142882, 81.900
39.426528, 81.900
39.712229, 81.900
40.000000, 81.900
40.289856, 81.900
40.581813, 81.900
40.875886, 81.900
41.172089, 81.900
41.470439, 81.900
41.770951, 81.900
42.073641, 81.900
42.378524, 81.900
42.685616, 81.900
42.994934, 81.900
43.306493, 81.900
43.620309, 81.900
43.936400, 81.900
44.254781, 81.900
44.575470, 81.900
44.898482, 81.900
45.223835, 81.900
45.551545, 81.900
45.881631, 81.900
46.214108, 81.900
46.548994, 81.900
46.886308, 81.900
47.226065, 81.900
47.568285, 81.900
47.912984, 81.900
48.260181, 81.900
48.609894, 81.900
48.962142, 81.900
49.316942, 81.900
49.674312, 81.900
50.034273, 81.900
50.396842, 81.900
50.762038, 81.900
51.129881, 81.900
51.500389, 81.900
51.873582, 81.900
52.249480, 81.900
52.628101, 81.900
53.009466, 81.900
53.393594, 81.900
53.780506, 81.900
54.170222, 81.900
54.562762, 81.900
54.958146, 81.900
55.356395, 81.900
55.757531, 81.900
56.161573, 81.900
56.568542, 81.900
56.978461, 81.900
57.391351, 81.900
57.807232, 81.900
58.226127, 81.900
58.648058, 81.900
59.073046, 81.900
59.501113, 81.900
59.932283, 81.900
60.366577, 81.900
60.804018, 81.900
61.244629, 81.900
61.688433, 81.900
62.135453, 81.900
62.585712, 81.900
63.039234, 81.900
63.496042, 81.900
63.956161, 81.900
64.419613, 81.900
64.886424, 81.900
65.356618, 81.900
65.830219, 81.900
66.307252, 81.900
66.787742, 81.900
67.271713, 81.900
67.759192, 81.900
68.250203, 81.900
68.744772, 81.900
69.242925, 81.900
69.744688, 81.900
70.250086, 81.900
70.759147, 81.900
71.271897, 81.900
71.788363, 81.900
72.308571, 81.900
72.832549, 81.900
73.360323, 81.900
73.891923, 81.900
74.427374, 81.900
74.966705, 81.900
75.509945, 81.900
76.057121, 81.900
76.608262, 81.900
77.163398, 81.900
77.722555, 81.900
78.285765, 81.900
78.853056, 81.900
79.424458, 81.900
80.000000, 81.900
80.579713, 81.900
81.163627, 81.900
81.751772, 81.900
82.344179, 81.900
82.940879, 81.900
83.541903, 81.900
84.147282, 81.900
84.757048, 81.900
85.371232, 81.901
85.989867, 81.901
86.612985, 81.901
87.240619, 81.901
87.872800, 81.901
88.509563, 81.901
89.150939, 81.901
89.796964, 81.901
90.447670, 81.901
91.103091, 81.902
91.763261, 81.902
92.428216, 81.903
93.097989, 81.903
93.772615, 81.904
94.452130, 81.904
95.136569, 81.904
95.825968, 81.905
96.520362, 81.906
97.219789, 81.907
97.924283, 81.908
98.633883, 81.909
99.348625, 81.911
100.068546, 81.913
100.793684, 81.915
101.524077, 81.918
102.259762, 81.921
103.000778, 81.924
103.747164, 81.929
104.498959, 81.934
105.256202, 81.938
106.018931, 81.943
106.787188, 81.949
107.561012, 81.954
108.340444, 81.960
109.125523, 81.966
109.916292, 81.973
110.712791, 81.979
111.515061, 81.986
112.323145, 81.993
113.137085, 82.000
113.956923, 82.007
114.782702, 82.014
115.614465, 82.022
116.452255, 82.030
117.296116, 82.037
118.146092, 82.045
119.002227, 82.053
119.864566, 82.061
120.733154, 82.069
121.608036, 82.076
122.489258, 82.084
123.376866, 82.091
124.270906, 82.099
125.171424, 82.106
126.078468, 82.113
126.992084, 82.120
127.912321, 82.126
128.839227, 82.132
129.772849, 82.138
130.713236, 82.144
131.660438, 82.150
132.614504, 82.156
133.575483, 82.161
134.543426, 82.167
135.518384, 82.173
136.500406, 82.179
137.489544, 82.185
138.485850, 82.191
139.489375, 82.197
140.500173, 82.203
141.518295, 82.209
142.543795, 82.214
143.576726, 82.220
144.617142, 82.226
145.665098, 82.232
146.720647, 82.237
147.783845, 82.243
148.854748, 82.249
149.933411, 82.255
151.019890, 82.261
152.114242, 82.266
153.216525, 82.272
154.326795, 82.278
155.445111, 82.284
156.571530, 82.290
157.706112, 82.296
158.848915, 82.302
160.000000, 82.308
161.159426, 82.314
162.327254, 82.321
163.503544, 82.327
164.688358, 82.333
165.881758, 82.340
167.083805, 82.346
168.294563, 82.352
169.514095, 82.358
170.742464, 82.365
171.979734, 82.371
173.225970, 82.378
174.481237, 82.384
175.745600, 82.391
177.019125, 82.397
178.301879, 82.404
179.593928, 82.410
180.895339, 82.416
182.206182, 82.423
183.526523, 82.430
184.856431, 82.436
186.195977, 82.443
187.545230, 82.449
188.904260, 82.456
190.273138, 82.462
191.651936, 82.469
193.040725, 82.476
194.439578, 82.482
195.848567, 82.489
197.267766, 82.495
198.697250, 82.501
200.137092, 82.508
201.587368, 82.514
203.048153, 82.520
204.519524, 82.526
206.001557, 82.532
207.494329, 82.538
208.997918, 82.544
210.512403, 82.550
212.037863, 82.556
213.574377, 82.562
215.122025, 82.569
216.680888, 82.575
218.251047, 82.581
219.832584, 82.587
221.425581, 82.594
223.030122, 82.600
224.646290, 82.607
226.274170, 82.613
227.913846, 82.620
229.565404, 82.626
231.228929, 82.633
232.904509, 82.640
234.592231, 82.646
236.292183, 82.653
238.004454, 82.660
239.729132, 82.667
241.466308, 82.674
243.216073, 82.681
244.978517, 82.688
246.753732, 82.696
248.541811, 82.703
250.342848, 82.711
252.156935, 82.718
253.984168, 82.726
255.824642, 82.735
257.678453, 82.743
259.545697, 82.751
261.426473, 82.759
263.320877, 82.768
265.229008, 82.776
267.150967, 82.785
269.086853, 82.794
271.036767, 82.803
273.000811, 82.812
274.979088, 82.821
276.971700, 82.830
278.978751, 82.839
281.000346, 82.849
283.036590, 82.858
285.087590, 82.868
287.153452, 82.878
289.234284, 82.887
291.330195, 82.897
293.441294, 82.907
295.567690, 82.917
297.709496, 82.927
299.866821, 82.937
302.039780, 82.948
304.228485, 82.958
306.433050, 82.968
308.653590, 82.979
310.890221, 82.990
313.143060, 83.001
315.412224, 83.012
317.697831, 83.024
320.000000, 83.036
322.318852, 83.047
324.654507, 83.059
327.007088, 83.071
329.376716, 83.084
331.763515, 83.096
334.167610, 83.109
336.589127, 83.121
339.028190, 83.134
341.484928, 83.146
343.959469, 83.159
346.451941, 83.171
348.962474, 83.184
351.491200, 83.196
354.038251, 83.209
356.603758, 83.221
359.187855, 83.234
361.790679, 83.246
364.412363, 83.258
367.053045, 83.270
369.712863, 83.282
372.391955, 83.294
375.090460, 83.306
377.808521, 83.318
380.546277, 83.329
383.303872, 83.341
386.081450, 83.352
388.879155, 83.363
391.697134, 83.373
394.535533, 83.383
397.394500, 83.393
400.274184, 83.402
403.174736, 83.410
406.096306, 83.418
409.039048, 83.425
412.003113, 83.433
414.988657, 83.439
417.995836, 83.445
421.024807, 83.452
424.075726, 83.458
427.148753, 83.464
430.244049, 83.470
433.361775, 83.476
436.502093, 83.482
439.665167, 83.488
442.851162, 83.494
446.060244, 83.500
449.292581, 83.506
452.548340, 83.512
455.827692, 83.518
459.130807, 83.524
462.457858, 83.530
465.809019, 83.537
469.184463, 83.543
472.584367, 83.550
476.008908, 83.557
479.458265, 83.565
482.932617, 83.572
486.432146, 83.580
489.957033, 83.589
493.507464, 83.599
497.083623, 83.609
500.685695, 83.620
504.313870, 83.633
507.968337, 83.647
511.649285, 83.661
515.356906, 83.675
519.091395, 83.690
522.852945, 83.706
526.641753, 83.721
530.458016, 83.737
534.301934, 83.753
538.173706, 83.769
542.073534, 83.786
546.001623, 83.802
549.958175, 83.819
553.943399, 83.835
557.957501, 83.852
562.000691, 83.868
566.073180, 83.884
570.175180, 83.900
574.306904, 83.917
578.468569, 83.933
582.660390, 83.949
586.882588, 83.964
591.135381, 83.980
595.418991, 83.995
599.733643, 84.011
604.079560, 84.025
608.456970, 84.039
612.866100, 84.053
617.307180, 84.066
621.780442, 84.078
626.286120, 84.089
630.824447, 84.100
635.395661, 84.109
640.000000, 84.117
644.637704, 84.125
649.309014, 84.133
654.014175, 84.140
658.753431, 84.145
663.527030, 84.151
668.335221, 84.157
673.178253, 84.162
678.056380, 84.166
682.969856, 84.170
687.918938, 84.174
692.903882, 84.178
697.924949, 84.181
702.982401, 84.184
708.076501, 84.187
713.207515, 84.189
718.375711, 84.192
723.581357, 84.194
728.824726, 84.196
734.106091, 84.198
739.425726, 84.200
744.783910, 84.201
750.180921, 84.203
755.617041, 84.204
761.092554, 84.205
766.607744, 84.206
772.162900, 84.207
777.758310, 84.207
783.394268, 84.208
789.071066, 84.209
794.789000, 84.209
800.548368, 84.210
806.349472, 84.211
812.192613, 84.212
818.078095, 84.213
824.006226, 84.214
829.977315, 84.215
835.991673, 84.217
842.049613, 84.219
848.151452, 84.221
854.297507, 84.224
860.488099, 84.227
866.723550, 84.230
873.004186, 84.234
879.330334, 84.239
885.702324, 84.244
892.120489, 84.249
898.585161, 84.255
905.096680, 84.261
911.655384, 84.268
918.261614, 84.274
924.915716, 84.281
931.618037, 84.288
938.368925, 84.296
945.168733, 84.304
952.017816, 84.312
958.916529, 84.320
965.865234, 84.328
972.864291, 84.337
979.914067, 84.345
987.014928, 84.354
994.167245, 84.364
1001.371391, 84.373
1008.627741, 84.383
1015.936673, 84.392
1023.298569, 84.402
1030.713812, 84.412
1038.182790, 84.423
1045.705890, 84.434
1053.283506, 84.444
1060.916032, 84.455
1068.603867, 84.467
1076.347412, 84.478
1084.147069, 84.490
1092.003245, 84.501
1099.916351, 84.514
1107.886798, 84.526
1115.915003, 84.539
1124.001383, 84.551
1132.146360, 84.564
1140.350359, 84.578
1148.613808, 84.591
1156.937137, 84.604
1165.320781, 84.618
1173.765175, 84.632
1182.270762, 84.646
1190.837983, 84.660
1199.467286, 84.674
1208.159120, 84.688
1216.913939, 84.702
1225.732199, 84.716
1234.614360, 84.730
1243.560885, 84.744
1252.572239, 84.758
1261.648894, 84.772
1270.791322, 84.787
1280.000000, 84.801
1289.275408, 84.815
1298.618029, 84.829
1308.028350, 84.843
1317.506863, 84.857
1327.054061, 84.871
1336.670442, 84.884
1346.356507, 84.897
1356.112761, 84.911
1365.939713, 84.923
1375.837875, 84.936
1385.807763, 84.948
1395.849898, 84.961
1405.964802, 84.972
1416.153002, 84.983
1426.415031, 84.994
1436.751422, 85.005
1447.162715, 85.016
1457.649452, 85.027
1468.212181, 85.038
1478.851452, 85.050
1489.567819, 85.061
1500.361842, 85.073
1511.234082, 85.085
1522.185107, 85.098
1533.215488, 85.111
1544.325799, 85.124
1555.516621, 85.138
1566.788535, 85.153
1578.142131, 85.168
1589.577999, 85.183
1601.096737, 85.199
1612.698944, 85.215
1624.385225, 85.231
1636.156190, 85.247
1651.340300, 85.268
1663.306593, 85.288
1675.359598, 85.308
1687.499944, 85.329
1699.728265, 85.350
1712.045196, 85.370
1724.451382, 85.387
1736.947467, 85.402
1749.534104, 85.413
1762.211950, 85.422
1774.981664, 85.428
1787.843913, 85.435
1800.799367, 85.444
1813.848701, 85.458
1826.992597, 85.481
1840.231738, 85.512
1853.566816, 85.553
1866.998525, 85.603
1880.527566, 85.660
1894.154644, 85.726
1907.880470, 85.796
1921.705758, 85.870
1935.631230, 85.944
1949.657612, 86.013
1963.785635, 86.073
1978.016035, 86.122
1992.349554, 86.158
2006.786940, 86.182
2021.328946, 86.196
2035.976329, 86.203
2050.729852, 86.205
2065.590286, 86.206
2080.558405, 86.207
2095.634989, 86.209
2110.820824, 86.212
2126.116702, 86.218
2141.523420, 86.225
2157.041781, 86.232
2172.672595, 86.239
2188.416676, 86.244
2204.274846, 86.246
2220.247930, 86.246
2236.336762, 86.242
2252.542180, 86.235
2268.865029, 86.225
2285.306160, 86.211
2301.866431, 86.194
2318.546704, 86.176
2335.347849, 86.157
2352.270742, 86.138
2369.316266, 86.120
2386.485308, 86.106
2403.778764, 86.096
2421.197536, 86.094
2438.742531, 86.105
2456.414665, 86.133
2474.214858, 86.184
2492.144039, 86.260
2510.203142, 86.363
2528.393109, 86.491
2546.714888, 86.641
2565.169434, 86.809
2583.757709, 86.987
2602.480682, 87.172
2621.339330, 87.357
2640.334635, 87.541
2659.467589, 87.722
2678.739187, 87.898
2698.150435, 88.070
2717.702346, 88.236
2737.395937, 88.398
2757.232237, 88.553
2777.212278, 88.703
2797.337103, 88.844
2817.607761, 88.978
2838.025308, 89.105
2858.590809, 89.225
2879.305337, 89.342
2900.169970, 89.457
2921.185797, 89.573
2942.353914, 89.691
2963.675423, 89.813
2985.151437, 89.938
3006.783075, 90.065
3028.571464, 90.192
3050.517742, 90.317
3072.623051, 90.437
3094.888544, 90.550
3117.315382, 90.654
3139.904734, 90.747
3162.657778, 90.828
3185.575700, 90.895
3208.659695, 90.950
3231.910966, 90.993
3255.330725, 91.027
3278.920193, 91.056
3302.680601, 91.083
3326.613186, 91.112
3350.719196, 91.147
3374.999889, 91.190
3399.456529, 91.243
3424.090393, 91.306
3448.902763, 91.378
3473.894934, 91.455
3499.068209, 91.536
3524.423900, 91.617
3549.963328, 91.697
3575.687826, 91.774
3601.598734, 91.847
3627.697403, 91.916
3653.985194, 91.982
3680.463477, 92.044
3707.133632, 92.104
3733.997051, 92.162
3761.055132, 92.217
3788.309288, 92.271
3815.760939, 92.321
3843.411516, 92.366
3871.262460, 92.402
3899.315224, 92.427
3927.571269, 92.438
3956.032069, 92.430
3984.699109, 92.401
4013.573881, 92.350
4042.657892, 92.278
4071.952657, 92.185
4101.459705, 92.075
4131.180573, 91.953
4161.116810, 91.828
4191.269978, 91.706
4221.641648, 91.596
4252.233403, 91.507
4283.046839, 91.445
4314.083562, 91.415
4345.345190, 91.417
4376.833353, 91.449
4408.549692, 91.508
4440.495860, 91.585
4472.673523, 91.675
4505.084359, 91.767
4537.730058, 91.855
4570.612320, 91.930
4603.732861, 91.987
4637.093407, 92.023
4670.695698, 92.034
4704.541484, 92.021
4738.632531, 91.986
4772.970616, 91.931
4807.557528, 91.860
4842.395072, 91.778
4877.485063, 91.689
4912.829330, 91.600
4948.429717, 91.517
4984.288078, 91.446
5020.406284, 91.390
5056.786218, 91.354
5093.429775, 91.338
5130.338867, 91.338
5167.515417, 91.351
5204.961364, 91.372
5242.678660, 91.396
5280.669271, 91.418
5318.935177, 91.436
5357.478374, 91.448
5396.300871, 91.454
5435.404691, 91.454
5474.791874, 91.448
5514.464473, 91.434
5554.424556, 91.411
5594.674206, 91.378
5635.215521, 91.333
5676.050616, 91.275
5717.181619, 91.201
5758.610673, 91.112
5800.339940, 91.009
5842.371594, 90.892
5884.707827, 90.765
5927.350846, 90.631
5970.302874, 90.497
6013.566149, 90.368
6057.142929, 90.246
6101.035483, 90.133
6145.246101, 90.030
6189.777088, 89.933
6234.630764, 89.840
6279.809469, 89.747
6325.315557, 89.651
6371.151401, 89.550
6417.319390, 89.443
6463.821932, 89.329
6510.661450, 89.210
6557.840387, 89.087
6605.361202, 88.964
6653.226372, 88.844
6701.438393, 88.729
6749.999778, 88.622
6798.913059, 88.526
6848.180785, 88.441
6897.805526, 88.370
6947.789869, 88.311
6998.136418, 88.266
7048.847799, 88.234
7099.926656, 88.213
7151.375651, 88.203
7203.197467, 88.203
7255.394806, 88.213
7307.970387, 88.234
7360.926953, 88.267
7414.267264, 88.315
7467.994101, 88.378
7522.110265, 88.459
7576.618577, 88.558
7631.521878, 88.674
7686.823031, 88.805
7742.524920, 88.947
7798.630447, 89.095
7855.142538, 89.246
7912.064139, 89.392
7969.398217, 89.532
8027.147762, 89.660
8085.315784, 89.775
8143.905315, 89.875
8202.919410, 89.961
8262.361145, 90.031
8322.233620, 90.086
8382.539955, 90.126
8443.283295, 90.153
8504.466807, 90.169
8566.093679, 90.176
8628.167125, 90.176
8690.690381, 90.172
8753.666706, 90.163
8817.099383, 90.151
8880.991720, 90.134
8945.347047, 90.113
9010.168719, 90.090
9075.460116, 90.064
9141.224641, 90.038
9207.465723, 90.012
9274.186815, 89.986
9341.391396, 89.959
9409.082968, 89.930
9477.265062, 89.899
9545.941232, 89.862
9615.115057, 89.817
9684.790144, 89.758
9754.970126, 89.681
9825.658661, 89.584
9896.859434, 89.462
9968.576157, 89.313
10040.812569, 89.136
10113.572436, 88.929
10186.859551, 88.693
10260.677734, 88.427
10335.030835, 88.131
10409.922729, 87.808
10485.357320, 87.458
10561.338541, 87.083
10637.870354, 86.687
10714.956748, 86.272
10792.601741, 85.846
10870.809383, 85.412
10949.583749, 84.980
11028.928946, 84.555
11108.849112, 84.149
11189.348412, 83.771
11270.431043, 83.432
11352.101232, 83.143
11434.363237, 82.913
11517.221347, 82.749
11600.679880, 82.653
11684.743189, 82.626
11769.415655, 82.664
11854.701692, 82.759
11940.605747, 82.903
12027.132299, 83.083
12114.285857, 83.288
12202.070966, 83.508
12290.492203, 83.732
12379.554176, 83.953
12469.261528, 84.165
12559.618937, 84.364
12650.631114, 84.548
12742.302802, 84.715
12834.638780, 84.865
12927.643864, 84.995
13021.322900, 85.107
13115.680774, 85.200
13210.722403, 85.273
13306.452743, 85.327
13402.876785, 85.363
13499.999555, 85.381
13597.826117, 85.385
13696.361571, 85.376
13795.611053, 85.357
13895.579737, 85.331
13996.272836, 85.300
14097.695599, 85.267
14199.853312, 85.232
14302.751303, 85.195
14406.394935, 85.156
14510.789611, 85.114
14615.940774, 85.067
14721.853906, 85.013
14828.534528, 84.949
14935.988202, 84.875
15044.220530, 84.787
15153.237153, 84.686
15263.043756, 84.573
15373.646063, 84.447
15485.049840, 84.312
15597.260894, 84.170
15710.285076, 84.025
15824.128278, 83.882
15938.796435, 83.744
16054.295524, 83.616
16170.631567, 83.501
16287.810629, 83.403
16405.838819, 83.323
16524.722290, 83.262
16644.467240, 83.220
16765.079911, 83.194
16886.566591, 83.180
17008.933613, 83.176
17132.187358, 83.176
17256.334250, 83.175
17381.380761, 83.170
17507.333411, 83.155
17634.198766, 83.128
17761.983440, 83.087
17890.694094, 83.029
18020.337438, 82.955
18150.920231, 82.863
18282.449282, 82.754
18414.931446, 82.628
18548.373630, 82.484
18682.782791, 82.321
18818.165937, 82.136
18954.530125, 81.926
19091.882463, 81.687
19230.230114, 81.414
19369.580288, 81.102
19509.940252, 80.747
19651.317321, 80.344
19793.718867, 79.889
19937.152314, 79.380
